File: B 2.2/Messdaten/XRD/Probe2.UXD
; C:\Data\Jenni\Praktikum B2.2\11-12-18-Jï¿½rg\Probe2.raw(Diffrac Plus V1.01 file) converted by XCH V1.0
_FILEVERSION=2
_SAMPLE='Probe2'
_SITE='II. Physikalisches Institut'
_ATTACHMENTS_CODE=0
_GONIOMETER_RADIUS=200.5
_FIXED_DIVSLIT=2.000000
_FIXED_SAMPLESLIT=1.000000
_FIXED_DETSLIT=0.200000
_MONOCHROMATOR=0
; None
_THIN_FILM='N'
_BETA_FILTER='Y'
_FIXED_ANTISLIT=2.000000
_ANALYZER_CODE=0
; None
_DATEMEASURED='13-Dec-2018 08:08:21'
_WL_UNIT='A'
_WL1=1.540590
_WL2=1.544430
_WL3=1.392230
_WLRATIO=0.520000
_ANODE='Cu'
; (Data for Range number 1)
_DRIVE='COUPLED'
_STEPTIME=5.000000
_STEPSIZE=0.020000
_STEPMODE='C'
_START=20
_THETA=10
_2THETA=20
_KHI=0.000000
_PHI=0.000000
_X=0.000000
_Y=0.000000
_Z=0.000000
_DIVERGENCE=0.000000
_ANTISCATTER=0.000000
_DETECTOR=1
; S.C.
_HV=1000
_GAIN=80
_LLD=0.550000
_ULD=1.310000
_DETECTORSLIT='unkn'
_AUX1=0.000000
_AUX2=0.000000
_AUX3=0.000000
_TIMESTARTED=18
_ROTATION_SPEED=120
_TEMP_RATE=-1.000000
_TEMP_DELAY=-1.000000
_KV=40
_MA=40
_RANGE_WL=1.540590
_3DPLANE=0
_2THETACOUNTS
  20.0000       533
  20.0600       538
  20.1200       583
  20.1800       571
  20.2400       537
  20.3000       591
  20.3600       537
  20.4200       552
  20.4800       538
  20.5400       525
  20.6000       523
  20.6600       569
  20.7200       570
  20.7800       533
  20.8400       588
  20.9000       574
  20.9600       566
  21.0200       561
  21.0800       547
  21.1400       644
  21.2000       604
  21.2600       572
  21.3200       615
  21.3800       605
  21.4400       606
  21.5000       599
  21.5600       619
  21.6200       593
  21.6800       603
  21.7400       643
  21.8000       621
  21.8600       606
  21.9200       617
  21.9800       594
  22.0400       670
  22.1000       613
  22.1600       585
  22.2200       595
  22.2800       663
  22.3400       614
  22.4000       677
  22.4600       648
  22.5200       642
  22.5800       646
  22.6400       638
  22.7000       655
  22.7600       620
  22.8200       656
  22.8800       641
  22.9400       727
  23.0000       621
  23.0600       687
  23.1200       662
  23.1800       685
  23.2400       677
  23.3000       706
  23.3600       687
  23.4200       669
  23.4800       699
  23.5400       723
  23.6000       665
  23.6600       670
  23.7200       728
  23.7800       704
  23.8400       696
  23.9000       715
  23.9600       751
  24.0200       746
  24.0800       681
  24.1400       689
  24.2000       718
  24.2600       676
  24.3200       694
  24.3800       711
  24.4400       707
  24.5000       678
  24.5600       704
  24.6200       732
  24.6800       672
  24.7400       667
  24.8000       696
  24.8600       660
  24.9200       682
  24.9800       700
  25.0400       658
  25.1000       702
  25.1600       657
  25.2200       724
  25.2800       682
  25.3400       709
  25.4000       701
  25.4600       672
  25.5200       634
  25.5800       654
  25.6400       696
  25.7000       700
  25.7600       693
  25.8200       656
  25.8800       637
  25.9400       682
  26.0000       622
  26.0600       661
  26.1200       646
  26.1800       635
  26.2400       668
  26.3000       619
  26.3600       645
  26.4200       679
  26.4800       638
  26.5400       679
  26.6000       665
  26.6600       641
  26.7200       640
  26.7800       629
  26.8400       683
  26.9000       656
  26.9600       693
  27.0200       661
  27.0800       694
  27.1400       641
  27.2000       692
  27.2600       678
  27.3200       657
  27.3800       652
  27.4400       656
  27.5000       700
  27.5600       675
  27.6200       655
  27.6800       677
  27.7400       629
  27.8000       661
  27.8600       638
  27.9200       655
  27.9800       651
  28.0400       664
  28.1000       623
  28.1600       650
  28.2200       639
  28.2800       689
  28.3400       741
  28.4000       641
  28.4600       602
  28.5200       624
  28.5800       597
  28.6400       618
  28.7000       630
  28.7600       629
  28.8200       616
  28.8800       645
  28.9400       627
  29.0000       646
  29.0600       665
  29.1200       619
  29.1800       672
  29.2400       610
  29.3000       619
  29.3600       600
  29.4200       610
  29.4800       606
  29.5400       598
  29.6000       688
  29.6600       581
  29.7200       611
  29.7800       600
  29.8400       633
  29.9000       592
  29.9600       560
  30.0200       604
  30.0800       607
  30.1400       620
  30.2000       655
  30.2600       608
  30.3200       610
  30.3800       616
  30.4400       562
  30.5000       611
  30.5600       601
  30.6200       637
  30.6800       618
  30.7400       622
  30.8000       637
  30.8600       611
  30.9200       622
  30.9800       673
  31.0400       577
  31.1000       586
  31.1600       634
  31.2200       616
  31.2800       622
  31.3400       640
  31.4000       587
  31.4600       624
  31.5200       617
  31.5800       593
  31.6400       642
  31.7000       621
  31.7600       573
  31.8200       611
  31.8800       599
  31.9400       628
  32.0000       616
  32.0600       598
  32.1200       571
  32.1800       632
  32.2400       590
  32.3000       647
  32.3600       590
  32.4200       617
  32.4800       613
  32.5400       635
  32.6000       617
  32.6600       593
  32.7200       580
  32.7800       581
  32.8400       643
  32.9000       611
  32.9600       656
  33.0200       563
  33.0800       573
  33.1400       644
  33.2000       586
  33.2600       635
  33.3200       619
  33.3800       658
  33.4400       626
  33.5000       642
  33.5600       659
  33.6200       635
  33.6800       593
  33.7400       640
  33.8000       577
  33.8600       683
  33.9200       654
  33.9800       637
  34.0400       610
  34.1000       644
  34.1600       642
  34.2200       616
  34.2800       635
  34.3400       669
  34.4000       604
  34.4600       652
  34.5200       606
  34.5800       609
  34.6400       655
  34.7000       636
  34.7600       628
  34.8200       605
  34.8800       580
  34.9400       591
  35.0000       599
  35.0600       638
  35.1200       608
  35.1800       612
  35.2400       590
  35.3000       601
  35.3600       573
  35.4200       610
  35.4800       630
  35.5400       565
  35.6000       605
  35.6600       555
  35.7200       589
  35.7800       604
  35.8400       588
  35.9000       580
  35.9600       585
  36.0200       574
  36.0800       604
  36.1400       598
  36.2000       609
  36.2600       592
  36.3200       576
  36.3800       606
  36.4400       573
  36.5000       614
  36.5600       599
  36.6200       589
  36.6800       550
  36.7400       554
  36.8000       591
  36.8600       599
  36.9200       560
  36.9800       601
  37.0400       564
  37.1000       639
  37.1600       593
  37.2200       583
  37.2800       603
  37.3400       615
  37.4000       602
  37.4600       625
  37.5200       636
  37.5800       639
  37.6400       609
  37.7000       646
  37.7600       666
  37.8200       656
  37.8800       623
  37.9400       637
  38.0000       594
  38.0600       661
  38.1200       622
  38.1800       625
  38.2400       659
  38.3000       687
  38.3600       680
  38.4200       648
  38.4800       618
  38.5400       626
  38.6000       639
  38.6600       590
  38.7200       652
  38.7800       588
  38.8400       595
  38.9000       630
  38.9600       588
  39.0200       626
  39.0800       586
  39.1400       579
  39.2000       567
  39.2600       607
  39.3200       607
  39.3800       587
  39.4400       607
  39.5000       614
  39.5600       608
  39.6200       658
  39.6800       536
  39.7400       595
  39.8000       611
  39.8600       657
  39.9200       643
  39.9800       675
  40.0400       676
  40.1000       649
  40.1600       677
  40.2200       691
  40.2800       641
  40.3400       708
  40.4000       640
  40.4600       670
  40.5200       643
  40.5800       648
  40.6400       706
  40.7000       685
  40.7600       706
  40.8200       652
  40.8800       665
  40.9400       730
  41.0000       739
  41.0600       696
  41.1200       795
  41.1800       789
  41.2400       831
  41.3000       785
  41.3600       950
  41.4200      1062
  41.4800      1173
  41.5400      1457
  41.6000      1873
  41.6600      2339
  41.7200      2684
  41.7800      3426
  41.8400      3793
  41.9000      4306
  41.9600      4342
  42.0200      3849
  42.0800      3128
  42.1400      2410
  42.2000      2009
  42.2600      1507
  42.3200      1257
  42.3800      1054
  42.4400       917
  42.5000       869
  42.5600       781
  42.6200       808
  42.6800       764
  42.7400       706
  42.8000       710
  42.8600       691
  42.9200       719
  42.9800       671
  43.0400       719
  43.1000       659
  43.1600       653
  43.2200       668
  43.2800       702
  43.3400       699
  43.4000       655
  43.4600       657
  43.5200       690
  43.5800       686
  43.6400       683
  43.7000       662
  43.7600       704
  43.8200       661
  43.8800       683
  43.9400       659
  44.0000       709
  44.0600       681
  44.1200       643
  44.1800       662
  44.2400       617
  44.3000       662
  44.3600       631
  44.4200       635
  44.4800       684
  44.5400       629
  44.6000       661
  44.6600       640
  44.7200       653
  44.7800       626
  44.8400       640
  44.9000       643
  44.9600       651
  45.0200       672
  45.0800       628
  45.1400       611
  45.2000       678
  45.2600       643
  45.3200       585
  45.3800       655
  45.4400       641
  45.5000       650
  45.5600       650
  45.6200       601
  45.6800       700
  45.7400       706
  45.8000       639
  45.8600       658
  45.9200       689
  45.9800       660
  46.0400       638
  46.1000       627
  46.1600       664
  46.2200       664
  46.2800       657
  46.3400       651
  46.4000       671
  46.4600       655
  46.5200       651
  46.5800       679
  46.6400       701
  46.7000       670
  46.7600       675
  46.8200       719
  46.8800       679
  46.9400       691
  47.0000       674
  47.0600       720
  47.1200       669
  47.1800       684
  47.2400       688
  47.3000       670
  47.3600       730
  47.4200       699
  47.4800       709
  47.5400       731
  47.6000       758
  47.6600       705
  47.7200       751
  47.7800       774
  47.8400       802
  47.9000       893
  47.9600       898
  48.0200       935
  48.0800      1032
  48.1400      1137
  48.2000      1250
  48.2600      1399
  48.3200      1605
  48.3800      1775
  48.4400      2047
  48.5000      2411
  48.5600      2758
  48.6200      2891
  48.6800      3004
  48.7400      3007
  48.8000      2884
  48.8600      2653
  48.9200      2326
  48.9800      2010
  49.0400      1673
  49.1000      1431
  49.1600      1276
  49.2200      1116
  49.2800      1030
  49.3400       859
  49.4000       846
  49.4600       826
  49.5200       790
  49.5800       788
  49.6400       746
  49.7000       737
  49.7600       712
  49.8200       676
  49.8800       726
  49.9400       699
  50.0000       673
  50.0600       733
  50.1200       679
  50.1800       677
  50.2400       656
  50.3000       667
  50.3600       679
  50.4200       689
  50.4800       672
  50.5400       645
  50.6000       724
  50.6600       627
  50.7200       690
  50.7800       670
  50.8400       651
  50.9000       671
  50.9600       649
  51.0200       655
  51.0800       652
  51.1400       664
  51.2000       685
  51.2600       665
  51.3200       676
  51.3800       640
  51.4400       671
  51.5000       659
  51.5600       636
  51.6200       616
  51.6800       629
  51.7400       694
  51.8000       643
  51.8600       664
  51.9200       708
  51.9800       649
  52.0400       686
  52.1000       652
  52.1600       647
  52.2200       628
  52.2800       640
  52.3400       659
  52.4000       639
  52.4600       681
  52.5200       672
  52.5800       651
  52.6400       663
  52.7000       668
  52.7600       634
  52.8200       663
  52.8800       682
  52.9400       661
  53.0000       678
  53.0600       682
  53.1200       608
  53.1800       685
  53.2400       647
  53.3000       643
  53.3600       676
  53.4200       678
  53.4800       678
  53.5400       692
  53.6000       674
  53.6600       664
  53.7200       653
  53.7800       702
  53.8400       698
  53.9000       729
  53.9600       693
  54.0200       700
  54.0800       642
  54.1400       641
  54.2000       687
  54.2600       649
  54.3200       632
  54.3800       755
  54.4400       680
  54.5000       680
  54.5600       699
  54.6200       748
  54.6800       699
  54.7400       742
  54.8000       726
  54.8600       745
  54.9200       731
  54.9800       722
  55.0400       722
  55.1000       700
  55.1600       753
  55.2200       675
  55.2800       736
  55.3400       655
  55.4000       744
  55.4600       702
  55.5200       666
  55.5800       698
  55.6400       682
  55.7000       724
  55.7600       649
  55.8200       682
  55.8800       721
  55.9400       725
  56.0000       658
  56.0600       697
  56.1200       636
  56.1800       720
  56.2400       699
  56.3000       694
  56.3600       662
  56.4200       711
  56.4800       690
  56.5400       663
  56.6000       644
  56.6600       650
  56.7200       672
  56.7800       696
  56.8400       730
  56.9000       679
  56.9600       705
  57.0200       660
  57.0800       650
  57.1400       696
  57.2000       646
  57.2600       702
  57.3200       680
  57.3800       658
  57.4400       628
  57.5000       690
  57.5600       659
  57.6200       703
  57.6800       715
  57.7400       677
  57.8000       714
  57.8600       664
  57.9200       678
  57.9800       664
  58.0400       705
  58.1000       677
  58.1600       704
  58.2200       659
  58.2800       671
  58.3400       657
  58.4000       722
  58.4600       708
  58.5200       667
  58.5800       700
  58.6400       691
  58.7000       650
  58.7600       686
  58.8200       692
  58.8800       681
  58.9400       704
  59.0000       687
  59.0600       682
  59.1200       692
  59.1800       674
  59.2400       710
  59.3000       649
  59.3600       700
  59.4200       694
  59.4800       699
  59.5400       678
  59.6000       675
  59.6600       671
  59.7200       700
  59.7800       687
  59.8400       742
  59.9000       723
  59.9600       685
  60.0200       666
  60.0800       692
  60.1400       687
  60.2000       683
  60.2600       687
  60.3200       763
  60.3800       742
  60.4400       722
  60.5000       700
  60.5600       662
  60.6200       708
  60.6800       755
  60.7400       772
  60.8000       699
  60.8600       753
  60.9200       730
  60.9800       710
  61.0400       678
  61.1000       683
  61.1600       759
  61.2200       723
  61.2800       699
  61.3400       712
  61.4000       691
  61.4600       719
  61.5200       731
  61.5800       707
  61.6400       694
  61.7000       711
  61.7600       711
  61.8200       697
  61.8800       740
  61.9400       686
  62.0000       687
  62.0600       682
  62.1200       724
  62.1800       720
  62.2400       661
  62.3000       702
  62.3600       718
  62.4200       693
  62.4800       638
  62.5400       723
  62.6000       649
  62.6600       709
  62.7200       734
  62.7800       726
  62.8400       683
  62.9000       759
  62.9600       688
  63.0200       690
  63.0800       696
  63.1400       688
  63.2000       727
  63.2600       692
  63.3200       713
  63.3800       732
  63.4400       677
  63.5000       668
  63.5600       721
  63.6200       746
  63.6800       741
  63.7400       721
  63.8000       701
  63.8600       672
  63.9200       692
  63.9800       733
  64.0400       729
  64.1000       700
  64.1600       736
  64.2200       714
  64.2800       741
  64.3400       718
  64.4000       666
  64.4600       676
  64.5200       704
  64.5800       702
  64.6400       760
  64.7000       711
  64.7600       718
  64.8200       733
  64.8800       724
  64.9400       699
  65.0000       712
  65.0600       722
  65.1200       708
  65.1800       676
  65.2400       657
  65.3000       717
  65.3600       682
  65.4200       689
  65.4800       676
  65.5400       657
  65.6000       675
  65.6600       717
  65.7200       704
  65.7800       683
  65.8400       690
  65.9000       710
  65.9600       695
  66.0200       711
  66.0800       714
  66.1400       725
  66.2000       700
  66.2600       704
  66.3200       740
  66.3800       711
  66.4400       677
  66.5000       700
  66.5600       707
  66.6200       694
  66.6800       684
  66.7400       697
  66.8000       691
  66.8600       713
  66.9200       708
  66.9800       690
  67.0400       721
  67.1000       662
  67.1600       715
  67.2200       678
  67.2800       702
  67.3400       682
  67.4000       714
  67.4600       753
  67.5200       746
  67.5800       679
  67.6400       718
  67.7000       634
  67.7600       705
  67.8200       740
  67.8800       722
  67.9400       693
  68.0000       681
  68.0600       739
  68.1200       691
  68.1800       748
  68.2400       706
  68.3000       742
  68.3600       750
  68.4200       683
  68.4800       634
  68.5400       718
  68.6000       767
  68.6600       730
  68.7200       700
  68.7800       706
  68.8400       742
  68.9000       711
  68.9600       726
  69.0200       677
  69.0800       729
  69.1400       698
  69.2000       673
  69.2600       710
  69.3200       744
  69.3800       721
  69.4400       704
  69.5000       710
  69.5600       712
  69.6200       780
  69.6800       739
  69.7400       727
  69.8000       698
  69.8600       738
  69.9200       737
  69.9800       741
  70.0400       772
  70.1000       698
  70.1600       759
  70.2200       761
  70.2800       807
  70.3400       753
  70.4000       792
  70.4600       795
  70.5200       786
  70.5800       770
  70.6400       845
  70.7000       848
  70.7600       841
  70.8200       962
  70.8800      1010
  70.9400      1025
  71.0000      1134
  71.0600      1179
  71.1200      1254
  71.1800      1322
  71.2400      1355
  71.3000      1385
  71.3600      1438
  71.4200      1320
  71.4800      1306
  71.5400      1194
  71.6000      1130
  71.6600      1034
  71.7200       950
  71.7800       916
  71.8400       875
  71.9000       909
  71.9600       860
  72.0200       793
  72.0800       772
  72.1400       741
  72.2000       757
  72.2600       720
  72.3200       747
  72.3800       774
  72.4400       755
  72.5000       756
  72.5600       717
  72.6200       810
  72.6800       725
  72.7400       740
  72.8000       749
  72.8600       746
  72.9200       730
  72.9800       711
  73.0400       718
  73.1000       719
  73.1600       747
  73.2200       747
  73.2800       762
  73.3400       722
  73.4000       701
  73.4600       735
  73.5200       740
  73.5800       701
  73.6400       729
  73.7000       732
  73.7600       718
  73.8200       753
  73.8800       711
  73.9400       733
  74.0000       735
  74.0600       766
  74.1200       720
  74.1800       737
  74.2400       733
  74.3000       716
  74.3600       675
  74.4200       712
  74.4800       704
  74.5400       683
  74.6000       694
  74.6600       755
  74.7200       729
  74.7800       745
  74.8400       714
  74.9000       749
  74.9600       757
  75.0200       741
  75.0800       701
  75.1400       716
  75.2000       781
  75.2600       741
  75.3200       756
  75.3800       728
  75.4400       716
  75.5000       762
  75.5600       746
  75.6200       748
  75.6800       720
  75.7400       744
  75.8000       762
  75.8600       743
  75.9200       759
  75.9800       773
  76.0400       760
  76.1000       775
  76.1600       797
  76.2200       815
  76.2800       756
  76.3400       719
  76.4000       757
  76.4600       749
  76.5200       756
  76.5800       808
  76.6400       770
  76.7000       688
  76.7600       798
  76.8200       748
  76.8800       755
  76.9400       706
  77.0000       703
  77.0600       756
  77.1200       785
  77.1800       708
  77.2400       725
  77.3000       709
  77.3600       717
  77.4200       768
  77.4800       748
  77.5400       719
  77.6000       765
  77.6600       790
  77.7200       722
  77.7800       773
  77.8400       730
  77.9000       741
  77.9600       778
  78.0200       778
  78.0800       742
  78.1400       736
  78.2000       734
  78.2600       714
  78.3200       706
  78.3800       770
  78.4400       728
  78.5000       768
  78.5600       696
  78.6200       743
  78.6800       783
  78.7400       733
  78.8000       693
  78.8600       774
  78.9200       689
  78.9800       702
  79.0400       786
  79.1000       697
  79.1600       690
  79.2200       763
  79.2800       761
  79.3400       714
  79.4000       691
  79.4600       732
  79.5200       802
  79.5800       702
  79.6400       703
  79.7000       752
  79.7600       744
  79.8200       647
  79.8800       709
  79.9400       762
  80.0000       758
  80.0600       733
  80.1200       766
  80.1800       797
  80.2400       728
  80.3000       761
  80.3600       672
  80.4200       736
  80.4800       752
  80.5400       771
  80.6000       757
  80.6600       746
  80.7200       726
  80.7800       748
  80.8400       746
  80.9000       751
  80.9600       753
  81.0200       818
  81.0800       736
  81.1400       800
  81.2000       762
  81.2600       816
  81.3200       798
  81.3800       778
  81.4400       760
  81.5000       735
  81.5600       804
  81.6200       753
  81.6800       746
  81.7400       757
  81.8000       708
  81.8600       728
  81.9200       839
  81.9800       797
  82.0400       732
  82.1000       816
  82.1600       750
  82.2200       805
  82.2800       742
  82.3400       746
  82.4000       739
  82.4600       728
  82.5200       790
  82.5800       788
  82.6400       800
  82.7000       791
  82.7600       698
  82.8200       823
  82.8800       743
  82.9400       750
  83.0000       752
  83.0600       752
  83.1200       766
  83.1800       826
  83.2400       692
  83.3000       794
  83.3600       802
  83.4200       715
  83.4800       753
  83.5400       713
  83.6000       785
  83.6600       733
  83.7200       757
  83.7800       751
  83.8400       694
  83.9000       754
  83.9600       756
  84.0200       723
  84.0800       780
  84.1400       729
  84.2000       729
  84.2600       800
  84.3200       769
  84.3800       756
  84.4400       803
  84.5000       753
  84.5600       813
  84.6200       751
  84.6800       797
  84.7400       742
  84.8000       794
  84.8600       828
  84.9200       858
  84.9800       867
  85.0400       839
  85.1000       873
  85.1600       861
  85.2200       903
  85.2800       922
  85.3400       966
  85.4000      1020
  85.4600       981
  85.5200      1046
  85.5800      1084
  85.6400      1114
  85.7000      1238
  85.7600      1215
  85.8200      1339
  85.8800      1374
  85.9400      1401
  86.0000      1470
  86.0600      1451
  86.1200      1496
  86.1800      1516
  86.2400      1554
  86.3000      1491
  86.3600      1423
  86.4200      1344
  86.4800      1240
  86.5400      1182
  86.6000      1105
  86.6600      1067
  86.7200      1060
  86.7800       953
  86.8400       895
  86.9000       892
  86.9600       862
  87.0200       821
  87.0800       850
  87.1400       818
  87.2000       788
  87.2600       810
  87.3200       747
  87.3800       765
  87.4400       773
  87.5000       788
  87.5600       752
  87.6200       765
  87.6800       778
  87.7400       813
  87.8000       748
  87.8600       808
  87.9200       751
  87.9800       740
  88.0400       764
  88.1000       790
  88.1600       748
  88.2200       765
  88.2800       731
  88.3400       794
  88.4000       712
  88.4600       757
  88.5200       724
  88.5800       755
  88.6400       714
  88.7000       737
  88.7600       798
  88.8200       762
  88.8800       764
  88.9400       706
  89.0000       748
  89.0600       723
  89.1200       781
  89.1800       741
  89.2400       765
  89.3000       734
  89.3600       713
  89.4200       724
  89.4800       743
  89.5400       754
  89.6000       762
  89.6600       755
  89.7200       718
  89.7800       727
  89.8400       732
  89.9000       725
  89.9600       778
  90.0200       760
  90.0800       785
  90.1400       775
  90.2000       724
  90.2600       784
  90.3200       837
  90.3800       796
  90.4400       831
  90.5000       876
  90.5600       849
  90.6200       835
  90.6800       916
  90.7400       916
  90.8000       940
  90.8600       998
  90.9200       951
  90.9800       989
  91.0400       998
  91.1000       947
  91.1600       987
  91.2200       925
  91.2800       896
  91.3400       847
  91.4000       876
  91.4600       789
  91.5200       800
  91.5800       760
  91.6400       836
  91.7000       769
  91.7600       776
  91.8200       772
  91.8800       767
  91.9400       761
  92.0000       738
  92.0600       773
  92.1200       681
  92.1800       788
  92.2400       798
  92.3000       729
  92.3600       767
  92.4200       744
  92.4800       724
  92.5400       710
  92.6000       746
  92.6600       760
  92.7200       701
  92.7800       785
  92.8400       721
  92.9000       745
  92.9600       750
  93.0200       737
  93.0800       760
  93.1400       752
  93.2000       780
  93.2600       730
  93.3200       754
  93.3800       760
  93.4400       733
  93.5000       743
  93.5600       680
  93.6200       741
  93.6800       770
  93.7400       750
  93.8000       709
  93.8600       737
  93.9200       732
  93.9800       713
  94.0400       734
  94.1000       788
  94.1600       756
  94.2200       706
  94.2800       735
  94.3400       749
  94.4000       724
  94.4600       721
  94.5200       729
  94.5800       735
  94.6400       729
  94.7000       753
  94.7600       769
  94.8200       746
  94.8800       745
  94.9400       720
  95.0000       732
  95.0600       739
  95.1200       763
  95.1800       759
  95.2400       749
  95.3000       762
  95.3600       764
  95.4200       785
  95.4800       788
  95.5400       753
  95.6000       787
  95.6600       804
  95.7200       719
  95.7800       768
  95.8400       787
  95.9000       778
  95.9600       813
  96.0200       795
  96.0800       733
  96.1400       752
  96.2000       788
  96.2600       735
  96.3200       758
  96.3800       769
  96.4400       771
  96.5000       726
  96.5600       806
  96.6200       852
  96.6800       752
  96.7400       709
  96.8000       765
  96.8600       752
  96.9200       746
  96.9800       738
  97.0400       763
  97.1000       756
  97.1600       747
  97.2200       746
  97.2800       731
  97.3400       767
  97.4000       757
  97.4600       746
  97.5200       768
  97.5800       714
  97.6400       759
  97.7000       750
  97.7600       728
  97.8200       716
  97.8800       756
  97.9400       780
  98.0000       724
  98.0600       730
  98.1200       785
  98.1800       752
  98.2400       794
  98.3000       747
  98.3600       740
  98.4200       730
  98.4800       784
  98.5400       770
  98.6000       740
  98.6600       708
  98.7200       744
  98.7800       714
  98.8400       752
  98.9000       752
  98.9600       775
  99.0200       755
  99.0800       784
  99.1400       775
  99.2000       747
  99.2600       733
  99.3200       763
  99.3800       699
  99.4400       782
  99.5000       728
  99.5600       704
  99.6200       772
  99.6800       759
  99.7400       753
  99.8000       731
  99.8600       745
  99.9200       798
  99.9800       774
 100.0400       758
 100.1000       720
 100.1600       822
 100.2200       769
 100.2800       747
 100.3400       744
 100.4000       740
 100.4600       806
 100.5200       794
 100.5800       783
 100.6400       840
 100.7000       776
 100.7600       814
 100.8200       781
 100.8800       815
 100.9400       785
 101.0000       811
 101.0600       810
 101.1200       789
 101.1800       804
 101.2400       831
 101.3000       798
 101.3600       751
 101.4200       781
 101.4800       799
 101.5400       771
 101.6000       746
 101.6600       758
 101.7200       788
 101.7800       733
 101.8400       787
 101.9000       785
 101.9600       792
 102.0200       761
 102.0800       743
 102.1400       744
 102.2000       777
 102.2600       746
 102.3200       711
 102.3800       760
 102.4400       770
 102.5000       770
 102.5600       729
 102.6200       814
 102.6800       796
 102.7400       759
 102.8000       805
 102.8600       740
 102.9200       724
 102.9800       785
 103.0400       702
 103.1000       722
 103.1600       766
 103.2200       799
 103.2800       769
 103.3400       790
 103.4000       765
 103.4600       729
 103.5200       826
 103.5800       765
 103.6400       744
 103.7000       743
 103.7600       769
 103.8200       741
 103.8800       749
 103.9400       766
 104.0000       823
 104.0600       748
 104.1200       754
 104.1800       753
 104.2400       738
 104.3000       808
 104.3600       785
 104.4200       772
 104.4800       727
 104.5400       751
 104.6000       772
 104.6600       734
 104.7200       750
 104.7800       747
 104.8400       734
 104.9000       749
 104.9600       760
 105.0000       749