File: B 2.2/Messdaten/XRD/Probe3.UXD
; C:\Data\Jenni\Praktikum B2.2\11-12-18-Jörg\Probe3.raw(Diffrac Plus V1.01 file) converted by XCH V1.0
_FILEVERSION=2
_SAMPLE='Probe3'
_SITE='II. Physikalisches Institut'
_ATTACHMENTS_CODE=0
_GONIOMETER_RADIUS=200.5
_FIXED_DIVSLIT=2.000000
_FIXED_SAMPLESLIT=1.000000
_FIXED_DETSLIT=0.200000
_MONOCHROMATOR=0
; None
_THIN_FILM='N'
_BETA_FILTER='Y'
_FIXED_ANTISLIT=2.000000
_ANALYZER_CODE=0
; None
_DATEMEASURED='13-Dec-2018 14:04:22'
_WL_UNIT='A'
_WL1=1.540590
_WL2=1.544430
_WL3=1.392230
_WLRATIO=0.520000
_ANODE='Cu'
; (Data for Range number 1)
_DRIVE='COUPLED'
_STEPTIME=5.000000
_STEPSIZE=0.020000
_STEPMODE='C'
_START=20
_THETA=10
_2THETA=20
_KHI=0.000000
_PHI=0.000000
_X=0.000000
_Y=0.000000
_Z=0.000000
_DIVERGENCE=0.000000
_ANTISCATTER=0.000000
_DETECTOR=1
; S.C.
_HV=1000
_GAIN=80
_LLD=0.550000
_ULD=1.310000
_DETECTORSLIT='unkn'
_AUX1=0.000000
_AUX2=0.000000
_AUX3=0.000000
_TIMESTARTED=12
_ROTATION_SPEED=120
_TEMP_RATE=-1.000000
_TEMP_DELAY=-1.000000
_KV=40
_MA=40
_RANGE_WL=1.540590
_3DPLANE=0
_2THETACOUNTS
  20.0000       402
  20.0600       388
  20.1200       395
  20.1800       355
  20.2400       399
  20.3000       370
  20.3600       422
  20.4200       400
  20.4800       407
  20.5400       382
  20.6000       402
  20.6600       400
  20.7200       443
  20.7800       401
  20.8400       390
  20.9000       422
  20.9600       407
  21.0200       402
  21.0800       391
  21.1400       431
  21.2000       399
  21.2600       424
  21.3200       442
  21.3800       409
  21.4400       422
  21.5000       427
  21.5600       424
  21.6200       435
  21.6800       423
  21.7400       450
  21.8000       421
  21.8600       405
  21.9200       402
  21.9800       440
  22.0400       410
  22.1000       441
  22.1600       449
  22.2200       443
  22.2800       426
  22.3400       435
  22.4000       463
  22.4600       464
  22.5200       421
  22.5800       408
  22.6400       430
  22.7000       448
  22.7600       446
  22.8200       456
  22.8800       461
  22.9400       469
  23.0000       495
  23.0600       468
  23.1200       458
  23.1800       455
  23.2400       450
  23.3000       491
  23.3600       497
  23.4200       520
  23.4800       488
  23.5400       460
  23.6000       478
  23.6600       498
  23.7200       512
  23.7800       488
  23.8400       535
  23.9000       515
  23.9600       512
  24.0200       534
  24.0800       513
  24.1400       462
  24.2000       515
  24.2600       493
  24.3200       478
  24.3800       483
  24.4400       491
  24.5000       468
  24.5600       490
  24.6200       480
  24.6800       498
  24.7400       496
  24.8000       482
  24.8600       463
  24.9200       448
  24.9800       478
  25.0400       471
  25.1000       466
  25.1600       441
  25.2200       469
  25.2800       482
  25.3400       492
  25.4000       465
  25.4600       480
  25.5200       499
  25.5800       492
  25.6400       496
  25.7000       477
  25.7600       476
  25.8200       505
  25.8800       454
  25.9400       480
  26.0000       463
  26.0600       460
  26.1200       457
  26.1800       451
  26.2400       471
  26.3000       514
  26.3600       494
  26.4200       475
  26.4800       499
  26.5400       475
  26.6000       478
  26.6600       528
  26.7200       470
  26.7800       479
  26.8400       473
  26.9000       462
  26.9600       538
  27.0200       475
  27.0800       514
  27.1400       480
  27.2000       435
  27.2600       505
  27.3200       465
  27.3800       484
  27.4400       481
  27.5000       496
  27.5600       454
  27.6200       487
  27.6800       444
  27.7400       492
  27.8000       505
  27.8600       495
  27.9200       491
  27.9800       475
  28.0400       455
  28.1000       501
  28.1600       468
  28.2200       454
  28.2800       497
  28.3400       464
  28.4000       479
  28.4600       480
  28.5200       487
  28.5800       508
  28.6400       459
  28.7000       495
  28.7600       510
  28.8200       500
  28.8800       493
  28.9400       482
  29.0000       479
  29.0600       455
  29.1200       476
  29.1800       473
  29.2400       476
  29.3000       455
  29.3600       459
  29.4200       486
  29.4800       504
  29.5400       504
  29.6000       524
  29.6600       471
  29.7200       507
  29.7800       529
  29.8400       511
  29.9000       504
  29.9600       493
  30.0200       462
  30.0800       501
  30.1400       506
  30.2000       505
  30.2600       525
  30.3200       521
  30.3800       485
  30.4400       533
  30.5000       517
  30.5600       500
  30.6200       483
  30.6800       504
  30.7400       521
  30.8000       470
  30.8600       503
  30.9200       512
  30.9800       488
  31.0400       484
  31.1000       497
  31.1600       498
  31.2200       518
  31.2800       518
  31.3400       463
  31.4000       505
  31.4600       549
  31.5200       532
  31.5800       470
  31.6400       539
  31.7000       537
  31.7600       539
  31.8200       518
  31.8800       525
  31.9400       509
  32.0000       564
  32.0600       529
  32.1200       531
  32.1800       533
  32.2400       530
  32.3000       558
  32.3600       562
  32.4200       516
  32.4800       539
  32.5400       528
  32.6000       520
  32.6600       495
  32.7200       548
  32.7800       562
  32.8400       510
  32.9000       528
  32.9600       516
  33.0200       487
  33.0800       545
  33.1400       573
  33.2000       525
  33.2600       558
  33.3200       526
  33.3800       586
  33.4400       589
  33.5000       570
  33.5600       625
  33.6200       627
  33.6800       608
  33.7400       605
  33.8000       600
  33.8600       614
  33.9200       578
  33.9800       580
  34.0400       561
  34.1000       553
  34.1600       572
  34.2200       565
  34.2800       563
  34.3400       525
  34.4000       515
  34.4600       527
  34.5200       498
  34.5800       550
  34.6400       526
  34.7000       507
  34.7600       483
  34.8200       530
  34.8800       493
  34.9400       504
  35.0000       526
  35.0600       535
  35.1200       481
  35.1800       519
  35.2400       460
  35.3000       537
  35.3600       520
  35.4200       528
  35.4800       542
  35.5400       509
  35.6000       495
  35.6600       497
  35.7200       495
  35.7800       489
  35.8400       521
  35.9000       496
  35.9600       521
  36.0200       540
  36.0800       540
  36.1400       528
  36.2000       549
  36.2600       545
  36.3200       499
  36.3800       540
  36.4400       546
  36.5000       517
  36.5600       523
  36.6200       538
  36.6800       549
  36.7400       487
  36.8000       520
  36.8600       524
  36.9200       552
  36.9800       513
  37.0400       554
  37.1000       543
  37.1600       548
  37.2200       522
  37.2800       553
  37.3400       527
  37.4000       536
  37.4600       565
  37.5200       530
  37.5800       511
  37.6400       518
  37.7000       569
  37.7600       550
  37.8200       562
  37.8800       589
  37.9400       514
  38.0000       592
  38.0600       540
  38.1200       564
  38.1800       545
  38.2400       566
  38.3000       513
  38.3600       556
  38.4200       539
  38.4800       568
  38.5400       539
  38.6000       558
  38.6600       557
  38.7200       541
  38.7800       601
  38.8400       566
  38.9000       546
  38.9600       576
  39.0200       567
  39.0800       572
  39.1400       636
  39.2000       609
  39.2600       581
  39.3200       633
  39.3800       657
  39.4400       628
  39.5000       638
  39.5600       660
  39.6200       664
  39.6800       728
  39.7400       702
  39.8000       783
  39.8600       853
  39.9200       886
  39.9800       913
  40.0400      1012
  40.1000      1116
  40.1600      1193
  40.2200      1242
  40.2800      1414
  40.3400      1496
  40.4000      1604
  40.4600      1680
  40.5200      1802
  40.5800      1845
  40.6400      1904
  40.7000      1978
  40.7600      2045
  40.8200      2198
  40.8800      2297
  40.9400      2383
  41.0000      2424
  41.0600      2613
  41.1200      2577
  41.1800      2537
  41.2400      2360
  41.3000      2281
  41.3600      1978
  41.4200      1859
  41.4800      1607
  41.5400      1617
  41.6000      1534
  41.6600      1483
  41.7200      1336
  41.7800      1146
  41.8400      1059
  41.9000       926
  41.9600       750
  42.0200       688
  42.0800       605
  42.1400       613
  42.2000       609
  42.2600       580
  42.3200       649
  42.3800       559
  42.4400       580
  42.5000       603
  42.5600       566
  42.6200       577
  42.6800       578
  42.7400       609
  42.8000       561
  42.8600       513
  42.9200       541
  42.9800       528
  43.0400       552
  43.1000       576
  43.1600       571
  43.2200       578
  43.2800       574
  43.3400       581
  43.4000       529
  43.4600       548
  43.5200       581
  43.5800       569
  43.6400       551
  43.7000       589
  43.7600       618
  43.8200       588
  43.8800       520
  43.9400       556
  44.0000       612
  44.0600       569
  44.1200       573
  44.1800       597
  44.2400       582
  44.3000       580
  44.3600       540
  44.4200       568
  44.4800       612
  44.5400       617
  44.6000       561
  44.6600       550
  44.7200       562
  44.7800       565
  44.8400       577
  44.9000       561
  44.9600       537
  45.0200       533
  45.0800       539
  45.1400       583
  45.2000       591
  45.2600       579
  45.3200       582
  45.3800       611
  45.4400       645
  45.5000       642
  45.5600       644
  45.6200       651
  45.6800       647
  45.7400       674
  45.8000       727
  45.8600       693
  45.9200       676
  45.9800       695
  46.0400       698
  46.1000       734
  46.1600       742
  46.2200       741
  46.2800       739
  46.3400       749
  46.4000       719
  46.4600       734
  46.5200       779
  46.5800       804
  46.6400       833
  46.7000       810
  46.7600       795
  46.8200       848
  46.8800       857
  46.9400       830
  47.0000       886
  47.0600       902
  47.1200       890
  47.1800       934
  47.2400       951
  47.3000      1048
  47.3600      1085
  47.4200      1119
  47.4800      1153
  47.5400      1271
  47.6000      1280
  47.6600      1351
  47.7200      1347
  47.7800      1369
  47.8400      1456
  47.9000      1450
  47.9600      1490
  48.0200      1457
  48.0800      1398
  48.1400      1371
  48.2000      1301
  48.2600      1344
  48.3200      1306
  48.3800      1331
  48.4400      1411
  48.5000      1376
  48.5600      1237
  48.6200      1170
  48.6800       972
  48.7400       871
  48.8000       785
  48.8600       779
  48.9200       690
  48.9800       676
  49.0400       641
  49.1000       635
  49.1600       661
  49.2200       630
  49.2800       624
  49.3400       630
  49.4000       539
  49.4600       618
  49.5200       629
  49.5800       619
  49.6400       563
  49.7000       614
  49.7600       619
  49.8200       570
  49.8800       569
  49.9400       605
  50.0000       537
  50.0600       583
  50.1200       600
  50.1800       558
  50.2400       596
  50.3000       545
  50.3600       543
  50.4200       592
  50.4800       571
  50.5400       565
  50.6000       588
  50.6600       602
  50.7200       542
  50.7800       558
  50.8400       518
  50.9000       586
  50.9600       519
  51.0200       538
  51.0800       536
  51.1400       541
  51.2000       569
  51.2600       566
  51.3200       559
  51.3800       551
  51.4400       508
  51.5000       572
  51.5600       568
  51.6200       550
  51.6800       566
  51.7400       557
  51.8000       553
  51.8600       579
  51.9200       527
  51.9800       580
  52.0400       578
  52.1000       601
  52.1600       544
  52.2200       566
  52.2800       582
  52.3400       513
  52.4000       570
  52.4600       580
  52.5200       537
  52.5800       533
  52.6400       552
  52.7000       544
  52.7600       561
  52.8200       576
  52.8800       559
  52.9400       574
  53.0000       538
  53.0600       544
  53.1200       571
  53.1800       560
  53.2400       604
  53.3000       506
  53.3600       569
  53.4200       543
  53.4800       595
  53.5400       557
  53.6000       556
  53.6600       586
  53.7200       490
  53.7800       583
  53.8400       543
  53.9000       562
  53.9600       561
  54.0200       570
  54.0800       590
  54.1400       615
  54.2000       576
  54.2600       602
  54.3200       598
  54.3800       616
  54.4400       607
  54.5000       671
  54.5600       644
  54.6200       660
  54.6800       646
  54.7400       653
  54.8000       653
  54.8600       637
  54.9200       609
  54.9800       590
  55.0400       586
  55.1000       601
  55.1600       573
  55.2200       578
  55.2800       522
  55.3400       556
  55.4000       544
  55.4600       594
  55.5200       581
  55.5800       543
  55.6400       549
  55.7000       541
  55.7600       506
  55.8200       534
  55.8800       546
  55.9400       549
  56.0000       589
  56.0600       572
  56.1200       567
  56.1800       492
  56.2400       542
  56.3000       559
  56.3600       561
  56.4200       563
  56.4800       636
  56.5400       574
  56.6000       538
  56.6600       546
  56.7200       537
  56.7800       559
  56.8400       536
  56.9000       501
  56.9600       549
  57.0200       550
  57.0800       535
  57.1400       545
  57.2000       546
  57.2600       601
  57.3200       562
  57.3800       527
  57.4400       540
  57.5000       529
  57.5600       584
  57.6200       530
  57.6800       545
  57.7400       562
  57.8000       543
  57.8600       595
  57.9200       556
  57.9800       550
  58.0400       551
  58.1000       521
  58.1600       543
  58.2200       593
  58.2800       541
  58.3400       571
  58.4000       565
  58.4600       553
  58.5200       560
  58.5800       598
  58.6400       635
  58.7000       563
  58.7600       566
  58.8200       558
  58.8800       577
  58.9400       579
  59.0000       559
  59.0600       571
  59.1200       554
  59.1800       580
  59.2400       560
  59.3000       561
  59.3600       594
  59.4200       560
  59.4800       626
  59.5400       547
  59.6000       618
  59.6600       569
  59.7200       574
  59.7800       602
  59.8400       561
  59.9000       550
  59.9600       633
  60.0200       589
  60.0800       562
  60.1400       623
  60.2000       640
  60.2600       627
  60.3200       639
  60.3800       619
  60.4400       612
  60.5000       585
  60.5600       684
  60.6200       601
  60.6800       611
  60.7400       627
  60.8000       567
  60.8600       559
  60.9200       613
  60.9800       580
  61.0400       557
  61.1000       560
  61.1600       563
  61.2200       612
  61.2800       560
  61.3400       596
  61.4000       586
  61.4600       560
  61.5200       586
  61.5800       596
  61.6400       537
  61.7000       596
  61.7600       606
  61.8200       539
  61.8800       562
  61.9400       580
  62.0000       604
  62.0600       570
  62.1200       598
  62.1800       594
  62.2400       572
  62.3000       580
  62.3600       560
  62.4200       582
  62.4800       596
  62.5400       552
  62.6000       565
  62.6600       605
  62.7200       547
  62.7800       595
  62.8400       560
  62.9000       606
  62.9600       584
  63.0200       580
  63.0800       548
  63.1400       554
  63.2000       582
  63.2600       571
  63.3200       587
  63.3800       564
  63.4400       570
  63.5000       569
  63.5600       526
  63.6200       516
  63.6800       584
  63.7400       545
  63.8000       517
  63.8600       577
  63.9200       551
  63.9800       566
  64.0400       584
  64.1000       524
  64.1600       628
  64.2200       558
  64.2800       587
  64.3400       595
  64.4000       595
  64.4600       525
  64.5200       569
  64.5800       599
  64.6400       595
  64.7000       564
  64.7600       564
  64.8200       516
  64.8800       542
  64.9400       561
  65.0000       589
  65.0600       579
  65.1200       551
  65.1800       546
  65.2400       565
  65.3000       553
  65.3600       564
  65.4200       555
  65.4800       561
  65.5400       561
  65.6000       547
  65.6600       540
  65.7200       576
  65.7800       615
  65.8400       597
  65.9000       589
  65.9600       600
  66.0200       580
  66.0800       530
  66.1400       544
  66.2000       576
  66.2600       539
  66.3200       563
  66.3800       610
  66.4400       595
  66.5000       580
  66.5600       616
  66.6200       557
  66.6800       602
  66.7400       624
  66.8000       588
  66.8600       616
  66.9200       562
  66.9800       597
  67.0400       598
  67.1000       631
  67.1600       646
  67.2200       623
  67.2800       599
  67.3400       597
  67.4000       588
  67.4600       649
  67.5200       612
  67.5800       551
  67.6400       633
  67.7000       595
  67.7600       613
  67.8200       635
  67.8800       591
  67.9400       630
  68.0000       639
  68.0600       590
  68.1200       590
  68.1800       613
  68.2400       629
  68.3000       638
  68.3600       668
  68.4200       631
  68.4800       679
  68.5400       665
  68.6000       663
  68.6600       612
  68.7200       619
  68.7800       654
  68.8400       657
  68.9000       681
  68.9600       693
  69.0200       672
  69.0800       677
  69.1400       678
  69.2000       654
  69.2600       713
  69.3200       720
  69.3800       716
  69.4400       722
  69.5000       759
  69.5600       762
  69.6200       792
  69.6800       786
  69.7400       793
  69.8000       849
  69.8600       887
  69.9200       878
  69.9800       845
  70.0400       889
  70.1000       872
  70.1600       907
  70.2200       927
  70.2800       889
  70.3400       874
  70.4000       846
  70.4600       848
  70.5200       839
  70.5800       784
  70.6400       844
  70.7000       825
  70.7600       802
  70.8200       917
  70.8800       826
  70.9400       909
  71.0000       927
  71.0600       990
  71.1200       927
  71.1800       951
  71.2400       923
  71.3000       842
  71.3600       810
  71.4200       707
  71.4800       700
  71.5400       680
  71.6000       681
  71.6600       634
  71.7200       611
  71.7800       582
  71.8400       635
  71.9000       684
  71.9600       634
  72.0200       644
  72.0800       614
  72.1400       596
  72.2000       587
  72.2600       609
  72.3200       606
  72.3800       566
  72.4400       579
  72.5000       589
  72.5600       625
  72.6200       604
  72.6800       628
  72.7400       553
  72.8000       582
  72.8600       592
  72.9200       592
  72.9800       574
  73.0400       558
  73.1000       579
  73.1600       600
  73.2200       601
  73.2800       590
  73.3400       576
  73.4000       601
  73.4600       566
  73.5200       571
  73.5800       623
  73.6400       553
  73.7000       547
  73.7600       577
  73.8200       641
  73.8800       571
  73.9400       603
  74.0000       535
  74.0600       572
  74.1200       605
  74.1800       599
  74.2400       589
  74.3000       608
  74.3600       565
  74.4200       589
  74.4800       582
  74.5400       602
  74.6000       553
  74.6600       624
  74.7200       625
  74.7800       580
  74.8400       573
  74.9000       610
  74.9600       552
  75.0200       573
  75.0800       606
  75.1400       620
  75.2000       610
  75.2600       586
  75.3200       562
  75.3800       619
  75.4400       583
  75.5000       610
  75.5600       616
  75.6200       662
  75.6800       638
  75.7400       603
  75.8000       669
  75.8600       664
  75.9200       645
  75.9800       597
  76.0400       670
  76.1000       620
  76.1600       653
  76.2200       654
  76.2800       674
  76.3400       622
  76.4000       638
  76.4600       651
  76.5200       622
  76.5800       649
  76.6400       628
  76.7000       655
  76.7600       641
  76.8200       591
  76.8800       614
  76.9400       617
  77.0000       566
  77.0600       595
  77.1200       570
  77.1800       582
  77.2400       612
  77.3000       593
  77.3600       565
  77.4200       614
  77.4800       602
  77.5400       594
  77.6000       584
  77.6600       616
  77.7200       604
  77.7800       597
  77.8400       661
  77.9000       653
  77.9600       639
  78.0200       600
  78.0800       575
  78.1400       591
  78.2000       592
  78.2600       585
  78.3200       601
  78.3800       580
  78.4400       629
  78.5000       591
  78.5600       599
  78.6200       624
  78.6800       610
  78.7400       597
  78.8000       594
  78.8600       607
  78.9200       586
  78.9800       651
  79.0400       571
  79.1000       590
  79.1600       611
  79.2200       642
  79.2800       599
  79.3400       632
  79.4000       581
  79.4600       601
  79.5200       630
  79.5800       617
  79.6400       628
  79.7000       613
  79.7600       585
  79.8200       607
  79.8800       579
  79.9400       618
  80.0000       633
  80.0600       589
  80.1200       645
  80.1800       642
  80.2400       632
  80.3000       605
  80.3600       633
  80.4200       654
  80.4800       646
  80.5400       636
  80.6000       688
  80.6600       666
  80.7200       655
  80.7800       684
  80.8400       672
  80.9000       621
  80.9600       641
  81.0200       699
  81.0800       684
  81.1400       637
  81.2000       640
  81.2600       678
  81.3200       647
  81.3800       674
  81.4400       675
  81.5000       637
  81.5600       645
  81.6200       674
  81.6800       688
  81.7400       689
  81.8000       625
  81.8600       619
  81.9200       704
  81.9800       638
  82.0400       658
  82.1000       665
  82.1600       651
  82.2200       655
  82.2800       675
  82.3400       687
  82.4000       641
  82.4600       615
  82.5200       656
  82.5800       632
  82.6400       719
  82.7000       655
  82.7600       723
  82.8200       646
  82.8800       657
  82.9400       679
  83.0000       714
  83.0600       632
  83.1200       686
  83.1800       656
  83.2400       703
  83.3000       645
  83.3600       687
  83.4200       718
  83.4800       615
  83.5400       752
  83.6000       637
  83.6600       721
  83.7200       724
  83.7800       727
  83.8400       746
  83.9000       777
  83.9600       718
  84.0200       780
  84.0800       766
  84.1400       763
  84.2000       814
  84.2600       829
  84.3200       817
  84.3800       816
  84.4400       785
  84.5000       858
  84.5600       879
  84.6200       815
  84.6800       873
  84.7400       853
  84.8000       923
  84.8600       841
  84.9200       913
  84.9800       866
  85.0400       879
  85.1000       893
  85.1600       889
  85.2200       867
  85.2800       847
  85.3400       821
  85.4000       852
  85.4600       833
  85.5200       818
  85.5800       783
  85.6400       896
  85.7000       935
  85.7600       900
  85.8200       937
  85.8800       945
  85.9400       960
  86.0000       989
  86.0600       939
  86.1200       927
  86.1800       885
  86.2400       841
  86.3000       804
  86.3600       798
  86.4200       749
  86.4800       688
  86.5400       727
  86.6000       695
  86.6600       674
  86.7200       639
  86.7800       683
  86.8400       611
  86.9000       696
  86.9600       665
  87.0200       641
  87.0800       602
  87.1400       608
  87.2000       612
  87.2600       617
  87.3200       615
  87.3800       627
  87.4400       643
  87.5000       653
  87.5600       700
  87.6200       654
  87.6800       632
  87.7400       660
  87.8000       645
  87.8600       661
  87.9200       607
  87.9800       638
  88.0400       677
  88.1000       630
  88.1600       684
  88.2200       665
  88.2800       677
  88.3400       600
  88.4000       651
  88.4600       653
  88.5200       637
  88.5800       642
  88.6400       655
  88.7000       658
  88.7600       656
  88.8200       643
  88.8800       703
  88.9400       639
  89.0000       674
  89.0600       683
  89.1200       656
  89.1800       692
  89.2400       668
  89.3000       677
  89.3600       700
  89.4200       693
  89.4800       669
  89.5400       680
  89.6000       733
  89.6600       701
  89.7200       683
  89.7800       669
  89.8400       705
  89.9000       669
  89.9600       680
  90.0200       683
  90.0800       669
  90.1400       629
  90.2000       723
  90.2600       693
  90.3200       665
  90.3800       650
  90.4400       669
  90.5000       615
  90.5600       668
  90.6200       631
  90.6800       705
  90.7400       679
  90.8000       699
  90.8600       709
  90.9200       639
  90.9800       705
  91.0400       631
  91.1000       669
  91.1600       659
  91.2200       664
  91.2800       671
  91.3400       613
  91.4000       620
  91.4600       567
  91.5200       596
  91.5800       622
  91.6400       577
  91.7000       587
  91.7600       596
  91.8200       611
  91.8800       615
  91.9400       606
  92.0000       585
  92.0600       599
  92.1200       610
  92.1800       589
  92.2400       632
  92.3000       618
  92.3600       582
  92.4200       623
  92.4800       549
  92.5400       631
  92.6000       575
  92.6600       630
  92.7200       586
  92.7800       594
  92.8400       609
  92.9000       592
  92.9600       609
  93.0200       601
  93.0800       595
  93.1400       625
  93.2000       658
  93.2600       584
  93.3200       595
  93.3800       556
  93.4400       606
  93.5000       611
  93.5600       560
  93.6200       602
  93.6800       599
  93.7400       608
  93.8000       624
  93.8600       636
  93.9200       609
  93.9800       587
  94.0400       585
  94.1000       585
  94.1600       601
  94.2200       630
  94.2800       587
  94.3400       619
  94.4000       584
  94.4600       579
  94.5200       611
  94.5800       591
  94.6400       604
  94.7000       585
  94.7600       670
  94.8200       611
  94.8800       621
  94.9400       607
  95.0000       626
  95.0600       633
  95.1200       664
  95.1800       619
  95.2400       622
  95.3000       684
  95.3600       609
  95.4200       700
  95.4800       630
  95.5400       621
  95.6000       644
  95.6600       657
  95.7200       646
  95.7800       651
  95.8400       678
  95.9000       608
  95.9600       646
  96.0200       684
  96.0800       610
  96.1400       614
  96.2000       613
  96.2600       621
  96.3200       588
  96.3800       624
  96.4400       558
  96.5000       608
  96.5600       664
  96.6200       626
  96.6800       594
  96.7400       650
  96.8000       623
  96.8600       612
  96.9200       628
  96.9800       611
  97.0400       628
  97.1000       640
  97.1600       616
  97.2200       578
  97.2800       627
  97.3400       580
  97.4000       657
  97.4600       597
  97.5200       622
  97.5800       592
  97.6400       581
  97.7000       555
  97.7600       620
  97.8200       603
  97.8800       682
  97.9400       633
  98.0000       643
  98.0600       610
  98.1200       606
  98.1800       595
  98.2400       653
  98.3000       633
  98.3600       587
  98.4200       579
  98.4800       622
  98.5400       623
  98.6000       628
  98.6600       634
  98.7200       634
  98.7800       669
  98.8400       638
  98.9000       622
  98.9600       612
  99.0200       658
  99.0800       618
  99.1400       612
  99.2000       627
  99.2600       622
  99.3200       622
  99.3800       584
  99.4400       603
  99.5000       612
  99.5600       625
  99.6200       611
  99.6800       584
  99.7400       623
  99.8000       664
  99.8600       622
  99.9200       642
  99.9800       640
 100.0400       640
 100.1000       664
 100.1600       683
 100.2200       669
 100.2800       658
 100.3400       639
 100.4000       687
 100.4600       638
 100.5200       697
 100.5800       645
 100.6400       689
 100.7000       639
 100.7600       665
 100.8200       621
 100.8800       682
 100.9400       673
 101.0000       627
 101.0600       637
 101.1200       629
 101.1800       626
 101.2400       617
 101.3000       679
 101.3600       644
 101.4200       648
 101.4800       588
 101.5400       616
 101.6000       617
 101.6600       629
 101.7200       630
 101.7800       609
 101.8400       599
 101.9000       616
 101.9600       607
 102.0200       616
 102.0800       623
 102.1400       629
 102.2000       629
 102.2600       620
 102.3200       614
 102.3800       653
 102.4400       624
 102.5000       690
 102.5600       618
 102.6200       592
 102.6800       673
 102.7400       594
 102.8000       634
 102.8600       603
 102.9200       590
 102.9800       616
 103.0400       601
 103.1000       645
 103.1600       623
 103.2200       562
 103.2800       618
 103.3400       585
 103.4000       632
 103.4600       586
 103.5200       591
 103.5800       654
 103.6400       610
 103.7000       592
 103.7600       590
 103.8200       649
 103.8800       650
 103.9400       666
 104.0000       587
 104.0600       609
 104.1200       653
 104.1800       635
 104.2400       612
 104.3000       623
 104.3600       625
 104.4200       591
 104.4800       590
 104.5400       643
 104.6000       646
 104.6600       629
 104.7200       671
 104.7800       655
 104.8400       640
 104.9000       683
 104.9600       663
 105.0000       615