File: B 2.2/Messdaten/XRD/Probe4.UXD
; C:\Data\Jenni\Praktikum B2.2\Probe4_450abgeschreckt_abgeschliffen_Messung.raw(Diffrac Plus V1.01 file) converted by XCH V1.0
_FILEVERSION=2
_SAMPLE='Probe 4'
_SITE='II. Physikalisches Institut'
_ATTACHMENTS_CODE=0
_GONIOMETER_RADIUS=200.5
_FIXED_DIVSLIT=2.000000
_FIXED_SAMPLESLIT=1.000000
_FIXED_DETSLIT=0.200000
_MONOCHROMATOR=0
; None
_THIN_FILM='N'
_BETA_FILTER='Y'
_FIXED_ANTISLIT=2.000000
_ANALYZER_CODE=0
; None
_DATEMEASURED='23-Nov-2018 12:39:02'
_WL_UNIT='A'
_WL1=1.540590
_WL2=1.544430
_WL3=1.392230
_WLRATIO=0.520000
_ANODE='Cu'
; (Data for Range number 1)
_DRIVE='COUPLED'
_STEPTIME=5.000000
_STEPSIZE=0.020000
_STEPMODE='C'
_START=20
_THETA=10
_2THETA=20
_KHI=0.000000
_PHI=0.000000
_X=0.000000
_Y=0.000000
_Z=0.000000
_DIVERGENCE=0.000000
_ANTISCATTER=0.000000
_DETECTOR=1
; S.C.
_HV=1000
_GAIN=80
_LLD=0.550000
_ULD=1.310000
_DETECTORSLIT='unkn'
_AUX1=0.000000
_AUX2=0.000000
_AUX3=0.000000
_TIMESTARTED=14
_ROTATION_SPEED=120
_TEMP_RATE=-1.000000
_TEMP_DELAY=-1.000000
_KV=40
_MA=40
_RANGE_WL=1.540590
_3DPLANE=0
_2THETACOUNTS
  20.0000       444
  20.0600       427
  20.1200       407
  20.1800       459
  20.2400       402
  20.3000       427
  20.3600       407
  20.4200       444
  20.4800       454
  20.5400       502
  20.6000       409
  20.6600       495
  20.7200       461
  20.7800       420
  20.8400       456
  20.9000       451
  20.9600       423
  21.0200       470
  21.0800       444
  21.1400       443
  21.2000       461
  21.2600       459
  21.3200       460
  21.3800       423
  21.4400       440
  21.5000       484
  21.5600       484
  21.6200       447
  21.6800       491
  21.7400       439
  21.8000       438
  21.8600       440
  21.9200       411
  21.9800       427
  22.0400       493
  22.1000       459
  22.1600       418
  22.2200       443
  22.2800       451
  22.3400       437
  22.4000       452
  22.4600       444
  22.5200       449
  22.5800       434
  22.6400       434
  22.7000       450
  22.7600       425
  22.8200       416
  22.8800       372
  22.9400       429
  23.0000       432
  23.0600       453
  23.1200       474
  23.1800       446
  23.2400       438
  23.3000       444
  23.3600       418
  23.4200       425
  23.4800       481
  23.5400       406
  23.6000       405
  23.6600       440
  23.7200       465
  23.7800       448
  23.8400       469
  23.9000       415
  23.9600       448
  24.0200       421
  24.0800       413
  24.1400       425
  24.2000       460
  24.2600       453
  24.3200       432
  24.3800       461
  24.4400       464
  24.5000       421
  24.5600       440
  24.6200       436
  24.6800       463
  24.7400       426
  24.8000       406
  24.8600       435
  24.9200       481
  24.9800       459
  25.0400       425
  25.1000       455
  25.1600       440
  25.2200       427
  25.2800       416
  25.3400       406
  25.4000       407
  25.4600       405
  25.5200       435
  25.5800       456
  25.6400       428
  25.7000       458
  25.7600       381
  25.8200       407
  25.8800       432
  25.9400       435
  26.0000       390
  26.0600       386
  26.1200       433
  26.1800       460
  26.2400       431
  26.3000       423
  26.3600       450
  26.4200       445
  26.4800       405
  26.5400       444
  26.6000       441
  26.6600       449
  26.7200       412
  26.7800       455
  26.8400       414
  26.9000       423
  26.9600       422
  27.0200       545
  27.0800       520
  27.1400       499
  27.2000       449
  27.2600       436
  27.3200       454
  27.3800       493
  27.4400       486
  27.5000       458
  27.5600       454
  27.6200       413
  27.6800       422
  27.7400       449
  27.8000       423
  27.8600       454
  27.9200       422
  27.9800       474
  28.0400       451
  28.1000       380
  28.1600       451
  28.2200       416
  28.2800       473
  28.3400       476
  28.4000       458
  28.4600       436
  28.5200       454
  28.5800       460
  28.6400       471
  28.7000       409
  28.7600       429
  28.8200       460
  28.8800       457
  28.9400       449
  29.0000       425
  29.0600       448
  29.1200       408
  29.1800       449
  29.2400       433
  29.3000       419
  29.3600       457
  29.4200       450
  29.4800       440
  29.5400       424
  29.6000       461
  29.6600       409
  29.7200       456
  29.7800       390
  29.8400       439
  29.9000       410
  29.9600       427
  30.0200       413
  30.0800       432
  30.1400       446
  30.2000       423
  30.2600       428
  30.3200       439
  30.3800       440
  30.4400       416
  30.5000       427
  30.5600       438
  30.6200       464
  30.6800       454
  30.7400       446
  30.8000       477
  30.8600       405
  30.9200       430
  30.9800       425
  31.0400       432
  31.1000       407
  31.1600       445
  31.2200       428
  31.2800       459
  31.3400       433
  31.4000       447
  31.4600       440
  31.5200       421
  31.5800       438
  31.6400       454
  31.7000       437
  31.7600       427
  31.8200       424
  31.8800       448
  31.9400       439
  32.0000       468
  32.0600       459
  32.1200       418
  32.1800       453
  32.2400       461
  32.3000       439
  32.3600       414
  32.4200       456
  32.4800       444
  32.5400       420
  32.6000       439
  32.6600       424
  32.7200       471
  32.7800       441
  32.8400       471
  32.9000       418
  32.9600       388
  33.0200       419
  33.0800       386
  33.1400       457
  33.2000       430
  33.2600       429
  33.3200       442
  33.3800       467
  33.4400       444
  33.5000       440
  33.5600       462
  33.6200       456
  33.6800       445
  33.7400       422
  33.8000       438
  33.8600       414
  33.9200       423
  33.9800       423
  34.0400       415
  34.1000       438
  34.1600       401
  34.2200       390
  34.2800       430
  34.3400       390
  34.4000       419
  34.4600       423
  34.5200       422
  34.5800       455
  34.6400       449
  34.7000       392
  34.7600       438
  34.8200       417
  34.8800       403
  34.9400       402
  35.0000       413
  35.0600       417
  35.1200       402
  35.1800       434
  35.2400       393
  35.3000       444
  35.3600       420
  35.4200       413
  35.4800       439
  35.5400       415
  35.6000       376
  35.6600       461
  35.7200       410
  35.7800       475
  35.8400       423
  35.9000       401
  35.9600       435
  36.0200       438
  36.0800       462
  36.1400       452
  36.2000       453
  36.2600       496
  36.3200       477
  36.3800       538
  36.4400       496
  36.5000       506
  36.5600       502
  36.6200       453
  36.6800       440
  36.7400       439
  36.8000       459
  36.8600       421
  36.9200       426
  36.9800       415
  37.0400       408
  37.1000       425
  37.1600       456
  37.2200       411
  37.2800       394
  37.3400       429
  37.4000       402
  37.4600       440
  37.5200       439
  37.5800       415
  37.6400       401
  37.7000       417
  37.7600       419
  37.8200       461
  37.8800       399
  37.9400       444
  38.0000       440
  38.0600       414
  38.1200       398
  38.1800       397
  38.2400       439
  38.3000       412
  38.3600       432
  38.4200       454
  38.4800       451
  38.5400       449
  38.6000       425
  38.6600       468
  38.7200       476
  38.7800       519
  38.8400       502
  38.9000       479
  38.9600       483
  39.0200       488
  39.0800       520
  39.1400       504
  39.2000       534
  39.2600       512
  39.3200       485
  39.3800       540
  39.4400       537
  39.5000       563
  39.5600       573
  39.6200       569
  39.6800       569
  39.7400       635
  39.8000       673
  39.8600       722
  39.9200       898
  39.9800      1022
  40.0400      1339
  40.1000      1789
  40.1600      2222
  40.2200      2779
  40.2800      3455
  40.3400      4081
  40.4000      4725
  40.4600      5297
  40.5200      4988
  40.5800      4082
  40.6400      3061
  40.7000      2091
  40.7600      1550
  40.8200      1161
  40.8800       955
  40.9400       759
  41.0000       687
  41.0600       646
  41.1200       606
  41.1800       558
  41.2400       550
  41.3000       589
  41.3600       558
  41.4200       477
  41.4800       520
  41.5400       499
  41.6000       499
  41.6600       491
  41.7200       471
  41.7800       431
  41.8400       465
  41.9000       481
  41.9600       475
  42.0200       444
  42.0800       478
  42.1400       499
  42.2000       520
  42.2600       498
  42.3200       424
  42.3800       491
  42.4400       473
  42.5000       483
  42.5600       497
  42.6200       433
  42.6800       470
  42.7400       462
  42.8000       473
  42.8600       463
  42.9200       487
  42.9800       474
  43.0400       451
  43.1000       456
  43.1600       442
  43.2200       422
  43.2800       444
  43.3400       461
  43.4000       444
  43.4600       450
  43.5200       427
  43.5800       450
  43.6400       437
  43.7000       464
  43.7600       444
  43.8200       462
  43.8800       440
  43.9400       439
  44.0000       448
  44.0600       440
  44.1200       415
  44.1800       447
  44.2400       421
  44.3000       476
  44.3600       427
  44.4200       429
  44.4800       449
  44.5400       437
  44.6000       434
  44.6600       443
  44.7200       451
  44.7800       476
  44.8400       441
  44.9000       487
  44.9600       482
  45.0200       407
  45.0800       481
  45.1400       481
  45.2000       446
  45.2600       456
  45.3200       445
  45.3800       526
  45.4400       467
  45.5000       445
  45.5600       459
  45.6200       501
  45.6800       518
  45.7400       464
  45.8000       499
  45.8600       530
  45.9200       532
  45.9800       557
  46.0400       574
  46.1000       598
  46.1600       615
  46.2200       622
  46.2800       664
  46.3400       686
  46.4000       795
  46.4600       829
  46.5200       892
  46.5800       987
  46.6400      1141
  46.7000      1252
  46.7600      1474
  46.8200      1569
  46.8800      1825
  46.9400      2141
  47.0000      2175
  47.0600      2378
  47.1200      2289
  47.1800      2119
  47.2400      1781
  47.3000      1449
  47.3600      1231
  47.4200       966
  47.4800       835
  47.5400       726
  47.6000       627
  47.6600       672
  47.7200       558
  47.7800       536
  47.8400       493
  47.9000       483
  47.9600       489
  48.0200       490
  48.0800       448
  48.1400       492
  48.2000       460
  48.2600       449
  48.3200       459
  48.3800       423
  48.4400       461
  48.5000       445
  48.5600       461
  48.6200       454
  48.6800       414
  48.7400       473
  48.8000       413
  48.8600       484
  48.9200       420
  48.9800       434
  49.0400       427
  49.1000       447
  49.1600       470
  49.2200       428
  49.2800       444
  49.3400       466
  49.4000       448
  49.4600       453
  49.5200       431
  49.5800       438
  49.6400       451
  49.7000       434
  49.7600       412
  49.8200       498
  49.8800       422
  49.9400       433
  50.0000       436
  50.0600       439
  50.1200       451
  50.1800       475
  50.2400       432
  50.3000       399
  50.3600       414
  50.4200       420
  50.4800       421
  50.5400       417
  50.6000       465
  50.6600       437
  50.7200       436
  50.7800       448
  50.8400       438
  50.9000       453
  50.9600       415
  51.0200       445
  51.0800       423
  51.1400       449
  51.2000       446
  51.2600       451
  51.3200       433
  51.3800       429
  51.4400       442
  51.5000       447
  51.5600       467
  51.6200       454
  51.6800       445
  51.7400       451
  51.8000       433
  51.8600       396
  51.9200       453
  51.9800       472
  52.0400       447
  52.1000       437
  52.1600       461
  52.2200       397
  52.2800       478
  52.3400       444
  52.4000       458
  52.4600       420
  52.5200       421
  52.5800       483
  52.6400       434
  52.7000       425
  52.7600       453
  52.8200       427
  52.8800       460
  52.9400       436
  53.0000       456
  53.0600       448
  53.1200       475
  53.1800       437
  53.2400       444
  53.3000       404
  53.3600       450
  53.4200       443
  53.4800       489
  53.5400       433
  53.6000       447
  53.6600       411
  53.7200       432
  53.7800       402
  53.8400       434
  53.9000       431
  53.9600       422
  54.0200       441
  54.0800       427
  54.1400       486
  54.2000       466
  54.2600       468
  54.3200       482
  54.3800       450
  54.4400       413
  54.5000       445
  54.5600       469
  54.6200       439
  54.6800       438
  54.7400       460
  54.8000       472
  54.8600       454
  54.9200       439
  54.9800       449
  55.0400       417
  55.1000       456
  55.1600       482
  55.2200       436
  55.2800       426
  55.3400       458
  55.4000       461
  55.4600       443
  55.5200       468
  55.5800       418
  55.6400       455
  55.7000       468
  55.7600       427
  55.8200       435
  55.8800       469
  55.9400       473
  56.0000       467
  56.0600       459
  56.1200       429
  56.1800       435
  56.2400       460
  56.3000       471
  56.3600       400
  56.4200       441
  56.4800       430
  56.5400       439
  56.6000       409
  56.6600       514
  56.7200       445
  56.7800       432
  56.8400       474
  56.9000       447
  56.9600       467
  57.0200       433
  57.0800       495
  57.1400       470
  57.2000       402
  57.2600       464
  57.3200       438
  57.3800       473
  57.4400       464
  57.5000       441
  57.5600       476
  57.6200       417
  57.6800       452
  57.7400       438
  57.8000       439
  57.8600       476
  57.9200       473
  57.9800       445
  58.0400       449
  58.1000       466
  58.1600       466
  58.2200       441
  58.2800       460
  58.3400       429
  58.4000       447
  58.4600       410
  58.5200       425
  58.5800       494
  58.6400       450
  58.7000       496
  58.7600       428
  58.8200       452
  58.8800       461
  58.9400       457
  59.0000       458
  59.0600       449
  59.1200       478
  59.1800       468
  59.2400       475
  59.3000       449
  59.3600       465
  59.4200       432
  59.4800       529
  59.5400       463
  59.6000       473
  59.6600       459
  59.7200       465
  59.7800       455
  59.8400       462
  59.9000       440
  59.9600       440
  60.0200       480
  60.0800       456
  60.1400       425
  60.2000       460
  60.2600       473
  60.3200       436
  60.3800       462
  60.4400       479
  60.5000       462
  60.5600       460
  60.6200       486
  60.6800       494
  60.7400       455
  60.8000       449
  60.8600       442
  60.9200       449
  60.9800       462
  61.0400       479
  61.1000       500
  61.1600       462
  61.2200       489
  61.2800       443
  61.3400       435
  61.4000       520
  61.4600       462
  61.5200       471
  61.5800       452
  61.6400       469
  61.7000       454
  61.7600       460
  61.8200       459
  61.8800       460
  61.9400       471
  62.0000       468
  62.0600       473
  62.1200       444
  62.1800       446
  62.2400       471
  62.3000       474
  62.3600       443
  62.4200       460
  62.4800       425
  62.5400       420
  62.6000       445
  62.6600       465
  62.7200       439
  62.7800       483
  62.8400       468
  62.9000       459
  62.9600       473
  63.0200       458
  63.0800       476
  63.1400       446
  63.2000       464
  63.2600       488
  63.3200       495
  63.3800       469
  63.4400       454
  63.5000       468
  63.5600       461
  63.6200       448
  63.6800       465
  63.7400       464
  63.8000       466
  63.8600       475
  63.9200       428
  63.9800       472
  64.0400       480
  64.1000       461
  64.1600       431
  64.2200       465
  64.2800       440
  64.3400       479
  64.4000       448
  64.4600       428
  64.5200       466
  64.5800       452
  64.6400       503
  64.7000       466
  64.7600       418
  64.8200       476
  64.8800       446
  64.9400       498
  65.0000       453
  65.0600       471
  65.1200       470
  65.1800       448
  65.2400       500
  65.3000       464
  65.3600       471
  65.4200       476
  65.4800       482
  65.5400       479
  65.6000       465
  65.6600       465
  65.7200       481
  65.7800       467
  65.8400       469
  65.9000       471
  65.9600       497
  66.0200       476
  66.0800       476
  66.1400       453
  66.2000       458
  66.2600       481
  66.3200       519
  66.3800       486
  66.4400       479
  66.5000       473
  66.5600       489
  66.6200       500
  66.6800       502
  66.7400       527
  66.8000       545
  66.8600       478
  66.9200       485
  66.9800       505
  67.0400       504
  67.1000       451
  67.1600       481
  67.2200       522
  67.2800       516
  67.3400       482
  67.4000       538
  67.4600       506
  67.5200       532
  67.5800       531
  67.6400       510
  67.7000       550
  67.7600       531
  67.8200       566
  67.8800       538
  67.9400       521
  68.0000       544
  68.0600       613
  68.1200       619
  68.1800       674
  68.2400       692
  68.3000       738
  68.3600       804
  68.4200       906
  68.4800      1019
  68.5400      1113
  68.6000      1155
  68.6600      1262
  68.7200      1415
  68.7800      1372
  68.8400      1335
  68.9000      1339
  68.9600      1199
  69.0200      1152
  69.0800      1049
  69.1400       936
  69.2000       818
  69.2600       733
  69.3200       656
  69.3800       623
  69.4400       613
  69.5000       578
  69.5600       583
  69.6200       548
  69.6800       525
  69.7400       522
  69.8000       520
  69.8600       464
  69.9200       485
  69.9800       532
  70.0400       530
  70.1000       500
  70.1600       461
  70.2200       508
  70.2800       460
  70.3400       464
  70.4000       485
  70.4600       469
  70.5200       490
  70.5800       471
  70.6400       481
  70.7000       467
  70.7600       447
  70.8200       451
  70.8800       492
  70.9400       491
  71.0000       501
  71.0600       477
  71.1200       473
  71.1800       456
  71.2400       543
  71.3000       438
  71.3600       473
  71.4200       519
  71.4800       483
  71.5400       476
  71.6000       456
  71.6600       488
  71.7200       485
  71.7800       489
  71.8400       443
  71.9000       493
  71.9600       454
  72.0200       471
  72.0800       479
  72.1400       455
  72.2000       519
  72.2600       468
  72.3200       487
  72.3800       493
  72.4400       469
  72.5000       452
  72.5600       458
  72.6200       532
  72.6800       464
  72.7400       490
  72.8000       479
  72.8600       443
  72.9200       481
  72.9800       475
  73.0400       503
  73.1000       494
  73.1600       461
  73.2200       537
  73.2800       526
  73.3400       443
  73.4000       482
  73.4600       488
  73.5200       487
  73.5800       509
  73.6400       450
  73.7000       447
  73.7600       501
  73.8200       458
  73.8800       490
  73.9400       491
  74.0000       469
  74.0600       462
  74.1200       444
  74.1800       467
  74.2400       510
  74.3000       479
  74.3600       447
  74.4200       478
  74.4800       460
  74.5400       506
  74.6000       497
  74.6600       484
  74.7200       464
  74.7800       454
  74.8400       433
  74.9000       501
  74.9600       497
  75.0200       508
  75.0800       455
  75.1400       472
  75.2000       458
  75.2600       493
  75.3200       481
  75.3800       480
  75.4400       486
  75.5000       455
  75.5600       449
  75.6200       435
  75.6800       469
  75.7400       497
  75.8000       468
  75.8600       485
  75.9200       502
  75.9800       496
  76.0400       449
  76.1000       479
  76.1600       466
  76.2200       498
  76.2800       484
  76.3400       474
  76.4000       479
  76.4600       497
  76.5200       439
  76.5800       431
  76.6400       491
  76.7000       447
  76.7600       477
  76.8200       440
  76.8800       494
  76.9400       483
  77.0000       482
  77.0600       487
  77.1200       481
  77.1800       500
  77.2400       458
  77.3000       441
  77.3600       502
  77.4200       489
  77.4800       461
  77.5400       477
  77.6000       495
  77.6600       460
  77.7200       507
  77.7800       491
  77.8400       476
  77.9000       517
  77.9600       473
  78.0200       504
  78.0800       454
  78.1400       464
  78.2000       482
  78.2600       482
  78.3200       467
  78.3800       462
  78.4400       491
  78.5000       528
  78.5600       496
  78.6200       504
  78.6800       484
  78.7400       476
  78.8000       490
  78.8600       472
  78.9200       467
  78.9800       476
  79.0400       491
  79.1000       461
  79.1600       463
  79.2200       470
  79.2800       524
  79.3400       499
  79.4000       508
  79.4600       473
  79.5200       473
  79.5800       448
  79.6400       492
  79.7000       514
  79.7600       484
  79.8200       500
  79.8800       461
  79.9400       471
  80.0000       461
  80.0600       495
  80.1200       492
  80.1800       453
  80.2400       504
  80.3000       498
  80.3600       519
  80.4200       499
  80.4800       520
  80.5400       514
  80.6000       471
  80.6600       489
  80.7200       505
  80.7800       473
  80.8400       488
  80.9000       496
  80.9600       514
  81.0200       500
  81.0800       517
  81.1400       500
  81.2000       496
  81.2600       493
  81.3200       510
  81.3800       516
  81.4400       523
  81.5000       518
  81.5600       576
  81.6200       568
  81.6800       578
  81.7400       556
  81.8000       525
  81.8600       577
  81.9200       601
  81.9800       599
  82.0400       606
  82.1000       661
  82.1600       599
  82.2200       699
  82.2800       767
  82.3400       707
  82.4000       793
  82.4600       882
  82.5200       922
  82.5800       994
  82.6400      1033
  82.7000      1122
  82.7600      1177
  82.8200      1260
  82.8800      1326
  82.9400      1334
  83.0000      1283
  83.0600      1299
  83.1200      1311
  83.1800      1155
  83.2400      1103
  83.3000      1005
  83.3600       986
  83.4200       851
  83.4800       781
  83.5400       766
  83.6000       684
  83.6600       655
  83.7200       656
  83.7800       610
  83.8400       537
  83.9000       552
  83.9600       543
  84.0200       566
  84.0800       504
  84.1400       516
  84.2000       508
  84.2600       453
  84.3200       491
  84.3800       497
  84.4400       498
  84.5000       480
  84.5600       489
  84.6200       526
  84.6800       485
  84.7400       510
  84.8000       431
  84.8600       517
  84.9200       475
  84.9800       531
  85.0400       528
  85.1000       479
  85.1600       475
  85.2200       497
  85.2800       511
  85.3400       450
  85.4000       484
  85.4600       502
  85.5200       455
  85.5800       468
  85.6400       481
  85.7000       452
  85.7600       525
  85.8200       489
  85.8800       504
  85.9400       453
  86.0000       489
  86.0600       476
  86.1200       512
  86.1800       476
  86.2400       501
  86.3000       507
  86.3600       469
  86.4200       481
  86.4800       476
  86.5400       480
  86.6000       513
  86.6600       501
  86.7200       516
  86.7800       550
  86.8400       536
  86.9000       545
  86.9600       568
  87.0200       612
  87.0800       619
  87.1400       591
  87.2000       612
  87.2600       655
  87.3200       744
  87.3800       710
  87.4400       757
  87.5000       754
  87.5600       755
  87.6200       769
  87.6800       749
  87.7400       692
  87.8000       687
  87.8600       640
  87.9200       620
  87.9800       669
  88.0400       622
  88.1000       557
  88.1600       500
  88.2200       541
  88.2800       477
  88.3400       477
  88.4000       498
  88.4600       507
  88.5200       521
  88.5800       534
  88.6400       533
  88.7000       450
  88.7600       499
  88.8200       476
  88.8800       492
  88.9400       452
  89.0000       500
  89.0600       495
  89.1200       532
  89.1800       485
  89.2400       477
  89.3000       474
  89.3600       526
  89.4200       492
  89.4800       497
  89.5400       426
  89.6000       464
  89.6600       456
  89.7200       475
  89.7800       497
  89.8400       466
  89.9000       444
  89.9600       490
  90.0200       510
  90.0800       506
  90.1400       453
  90.2000       464
  90.2600       504
  90.3200       447
  90.3800       455
  90.4400       466
  90.5000       453
  90.5600       462
  90.6200       450
  90.6800       481
  90.7400       468
  90.8000       460
  90.8600       472
  90.9200       474
  90.9800       501
  91.0400       457
  91.1000       473
  91.1600       497
  91.2200       475
  91.2800       450
  91.3400       456
  91.4000       442
  91.4600       473
  91.5200       465
  91.5800       446
  91.6400       456
  91.7000       489
  91.7600       505
  91.8200       488
  91.8800       489
  91.9400       458
  92.0000       478
  92.0600       431
  92.1200       486
  92.1800       513
  92.2400       451
  92.3000       488
  92.3600       490
  92.4200       464
  92.4800       520
  92.5400       449
  92.6000       456
  92.6600       505
  92.7200       432
  92.7800       499
  92.8400       487
  92.9000       500
  92.9600       435
  93.0200       474
  93.0800       457
  93.1400       473
  93.2000       479
  93.2600       509
  93.3200       451
  93.3800       480
  93.4400       472
  93.5000       490
  93.5600       472
  93.6200       455
  93.6800       439
  93.7400       445
  93.8000       469
  93.8600       449
  93.9200       487
  93.9800       448
  94.0400       428
  94.1000       530
  94.1600       513
  94.2200       442
  94.2800       444
  94.3400       445
  94.4000       462
  94.4600       454
  94.5200       516
  94.5800       451
  94.6400       446
  94.7000       498
  94.7600       434
  94.8200       465
  94.8800       460
  94.9400       475
  95.0000       469
  95.0600       470
  95.1200       448
  95.1800       474
  95.2400       463
  95.3000       464
  95.3600       497
  95.4200       499
  95.4800       470
  95.5400       496
  95.6000       454
  95.6600       440
  95.7200       462
  95.7800       460
  95.8400       444
  95.9000       475
  95.9600       468
  96.0200       466
  96.0800       460
  96.1400       491
  96.2000       425
  96.2600       439
  96.3200       433
  96.3800       496
  96.4400       473
  96.5000       457
  96.5600       452
  96.6200       440
  96.6800       455
  96.7400       451
  96.8000       487
  96.8600       459
  96.9200       461
  96.9800       454
  97.0400       457
  97.1000       510
  97.1600       461
  97.2200       466
  97.2800       448
  97.3400       488
  97.4000       468
  97.4600       460
  97.5200       479
  97.5800       430
  97.6400       499
  97.7000       479
  97.7600       488
  97.8200       476
  97.8800       501
  97.9400       510
  98.0000       490
  98.0600       515
  98.1200       452
  98.1800       485
  98.2400       468
  98.3000       474
  98.3600       477
  98.4200       473
  98.4800       471
  98.5400       481
  98.6000       494
  98.6600       467
  98.7200       522
  98.7800       442
  98.8400       489
  98.9000       460
  98.9600       475
  99.0200       406
  99.0800       455
  99.1400       486
  99.2000       465
  99.2600       423
  99.3200       482
  99.3800       477
  99.4400       525
  99.5000       491
  99.5600       480
  99.6200       484
  99.6800       487
  99.7400       481
  99.8000       495
  99.8600       491
  99.9200       526
  99.9800       467
 100.0400       452
 100.1000       460
 100.1600       478
 100.2200       530
 100.2800       482
 100.3400       478
 100.4000       477
 100.4600       500
 100.5200       471
 100.5800       487
 100.6400       457
 100.7000       454
 100.7600       475
 100.8200       458
 100.8800       474
 100.9400       455
 101.0000       503
 101.0600       515
 101.1200       472
 101.1800       452
 101.2400       447
 101.3000       466
 101.3600       483
 101.4200       462
 101.4800       512
 101.5400       455
 101.6000       480
 101.6600       471
 101.7200       494
 101.7800       491
 101.8400       498
 101.9000       497
 101.9600       484
 102.0200       482
 102.0800       475
 102.1400       464
 102.2000       471
 102.2600       477
 102.3200       470
 102.3800       524
 102.4400       469
 102.5000       483
 102.5600       483
 102.6200       451
 102.6800       485
 102.7400       467
 102.8000       487
 102.8600       494
 102.9200       518
 102.9800       484
 103.0400       440
 103.1000       463
 103.1600       440
 103.2200       507
 103.2800       481
 103.3400       477
 103.4000       474
 103.4600       502
 103.5200       475
 103.5800       424
 103.6400       477
 103.7000       528
 103.7600       487
 103.8200       465
 103.8800       511
 103.9400       537
 104.0000       485
 104.0600       507
 104.1200       485
 104.1800       533
 104.2400       500
 104.3000       505
 104.3600       500
 104.4200       504
 104.4800       508
 104.5400       496
 104.6000       518
 104.6600       528
 104.7200       461
 104.7800       498
 104.8400       478
 104.9000       496
 104.9600       509
 105.0000       489